trial_type	correct	response_time
neu	1	1.132
inc	0	0.0
con	1	0.972
inc	1	1.212
inc	1	1.387
neu	1	1.371
con	1	1.1
con	1	1.876
neu	1	0.996
con	1	1.54
inc	1	1.396
neu	1	1.972
con	1	1.587
neu	1	0.643
neu	1	0.603
inc	1	0.636
neu	1	0.78
con	1	1.804
con	1	0.828
inc	1	0.62
con	1	0.54
neu	1	0.667
neu	1	0.699
inc	1	1.996
neu	0	0.7
inc	1	0.596
con	0	1.548
neu	1	0.563
inc	1	1.171
inc	1	1.283
inc	1	0.683
inc	1	1.38
inc	1	1.548
inc	1	0.748
con	1	1.116
neu	1	0.619
con	1	1.964
inc	1	1.188
neu	1	1.475
neu	1	0.659
neu	1	0.579
neu	1	0.708
neu	1	0.508
inc	1	0.972
inc	1	0.98
inc	0	1.924
inc	1	1.364
neu	0	1.083
con	1	0.531
neu	1	0.579
con	1	0.627
inc	1	1.948
con	1	1.988
neu	1	0.644
neu	1	0.611
con	1	0.707
con	1	0.571
inc	0	0.0
inc	1	1.204
con	0	1.3
inc	1	0.732
con	1	1.155
con	1	0.611
con	1	1.475
neu	1	0.611
inc	1	0.859
neu	1	0.787
neu	1	0.507
inc	1	1.323
neu	1	0.707
inc	1	0.683
con	0	0.0
con	0	0.0
neu	1	1.171
inc	1	0.915
neu	1	0.587
inc	1	0.738
neu	1	0.779
con	0	0.0
inc	0	1.379
neu	0	0.0
con	1	1.027
inc	1	1.979
con	1	1.275
con	1	1.675
neu	1	1.459
inc	0	0.0
con	0	0.0
inc	0	0.0
con	0	0.0
neu	1	1.931
inc	1	0.891
neu	1	0.739
inc	1	0.931
con	0	0.442
con	1	0.579
con	1	1.427
neu	1	0.587
con	1	1.467
inc	0	0.0
con	1	1.715
inc	1	0.947
con	1	0.666
inc	0	0.0
neu	1	0.531
neu	1	0.915
inc	1	1.891
neu	1	0.595
con	1	0.651
con	1	1.411
neu	1	0.571
inc	1	0.611
con	1	1.851
con	0	0.0
con	1	0.931
con	1	1.443
neu	0	0.0
neu	0	1.739
inc	1	1.003
neu	0	0.0
