trial_type	correct	response_time
neu	1	0.633
inc	0	0.0
con	1	0.641
inc	0	0.0
inc	1	0.881
neu	1	0.626
con	1	0.626
con	1	0.498
neu	1	0.641
con	1	0.585
inc	1	1.121
neu	1	0.625
con	1	0.737
neu	1	0.625
neu	1	0.738
inc	1	1.122
neu	1	0.489
con	1	0.569
con	1	0.601
inc	1	0.721
con	1	0.657
neu	1	0.69
neu	1	0.65
inc	1	1.065
neu	1	0.681
inc	1	0.785
con	1	0.521
neu	1	0.801
inc	1	0.945
inc	1	0.77
inc	1	0.81
inc	1	0.65
inc	1	1.297
inc	1	0.681
con	1	0.681
neu	1	0.658
con	1	0.641
inc	1	0.761
neu	1	0.626
neu	1	0.586
neu	1	0.578
neu	1	0.53
neu	1	0.489
inc	1	0.777
inc	1	0.625
inc	1	0.665
inc	1	0.673
neu	1	0.593
con	1	0.681
neu	1	0.554
con	1	0.578
inc	1	0.713
con	1	0.537
neu	1	0.481
neu	0	0.473
con	1	0.538
con	1	0.53
inc	1	0.722
inc	1	0.753
con	1	0.553
inc	1	1.089
con	1	0.682
con	1	0.65
con	1	0.594
neu	1	0.521
inc	1	0.689
neu	1	0.705
neu	1	0.545
inc	1	0.721
neu	1	0.609
inc	1	0.706
con	1	0.658
con	1	0.721
neu	1	0.577
inc	1	0.721
neu	1	0.561
inc	1	0.729
neu	1	0.641
con	1	0.728
inc	0	0.0
neu	1	0.568
con	1	0.569
inc	1	0.745
con	1	0.649
con	1	0.657
neu	1	0.64
inc	1	0.977
con	1	1.673
inc	1	0.777
con	1	0.729
neu	1	0.584
inc	1	0.696
neu	1	0.576
inc	1	0.689
con	1	0.977
con	1	0.745
con	1	0.633
neu	1	0.609
con	1	0.601
inc	1	0.768
con	1	0.777
inc	1	0.929
con	1	0.601
inc	1	0.849
neu	1	0.641
neu	1	0.6
inc	1	0.688
neu	1	0.6
con	1	0.657
con	1	0.721
neu	1	0.601
inc	1	0.681
con	1	0.968
con	1	0.881
con	1	0.665
con	1	0.673
neu	1	0.601
neu	1	0.585
inc	1	0.945
neu	1	0.56
