trial_type	correct	response_time
neu	1	0.79
inc	1	0.758
con	1	0.51
inc	1	0.67
inc	1	0.67
neu	1	0.606
con	1	0.726
con	1	0.63
neu	1	0.598
con	1	0.55
inc	1	0.638
neu	1	0.51
con	1	0.55
neu	1	0.622
neu	1	0.51
inc	1	0.726
neu	1	0.518
con	1	0.542
con	1	0.478
inc	1	0.614
con	1	0.654
neu	1	0.622
neu	1	0.606
inc	1	0.662
neu	1	0.606
inc	1	0.606
con	1	0.574
neu	1	0.534
inc	1	0.678
inc	1	0.598
inc	1	0.622
inc	1	0.646
inc	1	0.654
inc	1	0.606
con	1	0.518
neu	1	0.534
con	1	0.526
inc	1	0.638
neu	1	0.597
neu	1	0.717
neu	1	0.557
neu	1	0.541
neu	1	0.598
inc	1	1.118
inc	1	0.774
inc	1	0.653
inc	1	0.685
neu	1	0.637
con	1	0.565
neu	1	0.557
con	1	0.525
inc	1	0.678
con	1	0.582
neu	1	0.565
neu	1	0.597
con	1	0.59
con	1	0.574
inc	1	0.678
inc	1	0.773
con	1	0.549
inc	1	0.653
con	1	0.589
con	1	0.733
con	1	0.605
neu	1	0.533
inc	1	0.653
neu	1	0.758
neu	1	0.63
inc	1	0.702
neu	1	0.653
inc	1	0.661
con	1	0.533
con	1	0.509
neu	1	0.582
inc	1	0.638
neu	1	0.462
inc	1	0.709
neu	1	0.581
con	1	0.614
inc	1	0.942
neu	1	0.573
con	1	0.549
inc	1	0.717
con	1	0.629
con	1	0.582
neu	1	0.501
inc	1	0.693
con	1	0.494
inc	1	0.733
con	1	0.597
neu	1	0.517
inc	1	0.781
neu	1	0.573
inc	1	0.685
con	1	0.47
con	1	0.47
con	1	0.47
neu	1	0.525
con	1	0.437
inc	1	0.766
con	1	0.51
inc	1	0.718
con	1	0.462
inc	1	0.717
neu	1	0.501
neu	1	0.542
inc	1	0.646
neu	1	0.574
con	1	0.621
con	1	0.605
neu	1	0.573
inc	1	0.597
con	1	0.525
con	1	0.597
con	1	0.445
con	1	0.501
neu	1	0.526
neu	1	0.534
inc	0	0.502
neu	1	0.557
