trial_type	correct	response_time
neu	1	0.929
inc	1	1.201
con	1	0.761
inc	1	0.697
inc	1	0.712
neu	1	0.665
con	1	0.593
con	1	0.705
neu	1	0.529
con	1	0.585
inc	1	0.777
neu	1	0.553
con	1	0.593
neu	1	0.561
neu	1	0.578
inc	1	0.65
neu	1	0.562
con	1	0.618
con	1	0.602
inc	1	0.602
con	1	0.594
neu	1	0.633
neu	1	0.562
inc	1	0.778
neu	1	0.554
inc	1	1.138
con	1	0.602
neu	1	0.602
inc	1	0.674
inc	1	0.666
inc	1	0.794
inc	1	0.61
inc	1	0.691
inc	1	0.763
con	1	0.611
neu	1	0.619
con	1	0.642
inc	1	0.741
neu	1	0.643
neu	1	0.555
neu	1	0.587
neu	1	0.571
neu	1	0.563
inc	1	0.747
inc	1	0.811
inc	1	0.772
inc	1	0.652
neu	1	0.572
con	1	0.548
neu	1	0.492
con	1	0.596
inc	1	1.084
con	1	0.555
neu	1	0.683
neu	1	0.563
con	1	0.684
con	1	0.596
inc	1	0.692
inc	1	0.879
con	1	0.535
inc	1	0.767
con	1	0.711
con	1	0.615
con	1	0.8
neu	1	0.632
inc	1	0.687
neu	1	0.615
neu	1	0.615
inc	1	0.703
neu	1	0.679
inc	1	0.679
con	1	0.759
con	1	0.791
neu	1	0.624
inc	1	0.728
neu	1	0.44
inc	1	0.672
neu	1	0.568
con	1	0.704
inc	1	1.456
neu	1	0.544
con	1	0.609
inc	1	0.896
con	1	0.64
con	1	0.568
neu	1	0.616
inc	1	0.872
con	1	0.553
inc	1	0.697
con	1	0.513
neu	1	0.481
inc	1	0.609
neu	1	0.497
inc	1	0.609
con	1	0.577
con	1	0.473
con	1	0.513
neu	1	0.514
con	1	0.481
inc	1	0.785
con	1	0.593
inc	1	0.817
con	1	0.545
inc	1	0.609
neu	1	0.602
neu	1	0.586
inc	1	0.69
neu	1	0.57
con	1	0.746
con	1	0.674
neu	1	0.554
inc	1	1.274
con	1	0.634
con	1	0.594
con	1	0.618
con	1	0.57
neu	1	0.53
neu	1	0.482
inc	1	0.65
neu	1	0.579
