trial_type	correct	response_time
neu	1	0.626
inc	1	0.666
con	1	0.459
inc	1	0.579
inc	1	0.555
neu	1	0.554
con	1	0.522
con	1	0.53
neu	1	0.506
con	1	0.498
inc	1	0.595
neu	1	0.419
con	1	0.467
neu	1	0.474
neu	1	0.546
inc	1	0.57
neu	1	0.474
con	1	0.482
con	1	0.522
inc	1	0.602
con	1	0.458
neu	1	0.602
neu	1	0.474
inc	1	0.53
neu	1	0.522
inc	1	0.642
con	1	0.545
neu	1	0.473
inc	1	0.545
inc	1	0.506
inc	1	0.602
inc	1	0.514
inc	1	0.561
inc	1	0.521
con	1	0.609
neu	1	0.546
con	1	0.602
inc	1	0.553
neu	1	0.57
neu	1	0.458
neu	1	0.458
neu	1	0.41
neu	1	0.577
inc	1	0.585
inc	1	0.553
inc	1	0.602
inc	1	0.506
neu	1	0.514
con	1	0.522
neu	1	0.586
con	1	0.53
inc	1	0.665
con	1	0.473
neu	1	0.506
neu	1	0.538
con	1	0.562
con	1	0.554
inc	1	0.561
inc	1	0.682
con	1	0.554
inc	1	0.634
con	1	0.657
con	1	0.521
con	1	0.57
neu	1	0.506
inc	1	0.73
neu	1	0.506
neu	1	0.658
inc	1	0.698
neu	1	0.521
inc	1	0.625
con	1	0.57
con	1	0.554
neu	1	0.618
inc	1	0.57
neu	1	0.594
inc	1	0.593
neu	1	0.53
con	1	0.546
inc	1	0.554
neu	1	0.506
con	1	0.618
inc	1	0.633
con	1	0.514
con	1	0.682
neu	1	0.618
inc	1	0.593
con	1	0.594
inc	1	0.61
con	1	0.594
neu	1	0.53
inc	1	0.554
neu	1	0.481
inc	1	0.497
con	1	0.674
con	1	0.514
con	1	0.57
neu	1	0.546
con	1	0.466
inc	1	0.625
con	1	0.505
inc	0	0.402
con	1	0.722
inc	1	0.722
neu	1	0.53
neu	1	0.601
inc	1	0.633
neu	1	0.57
con	1	0.65
con	1	0.666
neu	1	0.546
inc	1	0.61
con	1	0.658
con	1	0.538
con	1	0.522
con	1	0.642
neu	1	0.586
neu	1	0.457
inc	1	0.625
neu	1	0.625
