trial_type	correct	response_time
neu	1	0.689
inc	1	0.913
con	1	0.682
inc	1	0.802
inc	1	0.866
neu	1	0.762
con	1	0.578
con	1	0.634
neu	1	0.546
con	1	0.69
inc	1	0.786
neu	1	0.602
con	1	0.666
neu	1	0.618
neu	1	0.617
inc	0	0.0
neu	1	0.786
con	1	0.578
con	1	0.658
inc	1	0.602
con	1	0.578
neu	1	0.65
neu	1	0.514
inc	1	0.762
neu	1	0.562
inc	1	1.706
con	1	0.634
neu	1	0.538
inc	1	0.761
inc	1	0.673
inc	1	0.745
inc	1	0.761
inc	1	0.761
inc	1	0.625
con	1	0.673
neu	1	0.833
con	1	0.626
inc	1	0.849
neu	1	0.657
neu	1	0.553
neu	1	0.585
neu	1	0.537
neu	1	0.505
inc	1	1.033
inc	1	0.737
inc	1	0.809
inc	1	0.577
neu	1	0.513
con	1	0.553
neu	1	0.481
con	1	0.418
inc	1	0.825
con	1	0.513
neu	1	0.617
neu	1	0.489
con	1	0.537
con	1	0.537
inc	1	0.609
inc	1	0.785
con	1	0.529
inc	1	0.921
con	1	0.561
con	1	0.529
con	1	0.593
neu	1	0.545
inc	1	0.697
neu	1	0.513
neu	1	0.513
inc	1	0.705
neu	1	0.601
inc	1	0.737
con	1	0.633
con	1	0.505
neu	1	0.585
inc	1	0.674
neu	1	0.506
inc	1	0.673
neu	1	0.513
con	1	0.641
inc	1	0.777
neu	1	0.513
con	1	0.521
inc	1	0.857
con	1	0.601
con	1	0.489
neu	1	0.506
inc	1	0.617
con	1	0.433
inc	1	0.617
con	1	0.585
neu	1	0.521
inc	1	0.817
neu	1	0.569
inc	0	0.417
con	1	0.601
con	1	0.489
con	1	0.529
neu	1	0.457
con	1	0.514
inc	1	0.769
con	1	0.537
inc	1	0.905
con	1	0.625
inc	1	0.673
neu	1	0.473
neu	1	0.545
inc	1	0.809
neu	1	0.409
con	1	0.473
con	1	0.562
neu	1	0.562
inc	1	0.825
con	1	0.521
con	1	0.505
con	1	0.457
con	1	0.529
neu	1	0.593
neu	1	0.505
inc	1	0.897
neu	1	0.569
