trial_type	correct	response_time
neu	1	0.655
inc	1	1.175
con	1	0.695
inc	1	0.688
inc	1	0.6
neu	1	0.543
con	1	0.543
con	1	0.615
neu	1	0.663
con	1	0.663
inc	1	0.623
neu	1	0.487
con	1	0.535
neu	1	0.559
neu	1	0.711
inc	1	0.623
neu	1	0.671
con	1	0.575
con	1	0.631
inc	1	0.591
con	1	0.519
neu	1	0.575
neu	1	0.559
inc	1	0.655
neu	1	0.527
inc	1	0.639
con	1	0.551
neu	1	0.543
inc	1	0.599
inc	1	0.631
inc	1	0.567
inc	1	0.575
inc	1	0.6
inc	1	0.583
con	1	0.567
neu	1	0.615
con	1	0.559
inc	1	0.967
neu	1	0.575
neu	1	0.567
neu	1	0.535
neu	1	0.535
neu	1	0.655
inc	1	0.631
inc	0	0.463
inc	1	0.607
inc	1	0.615
neu	1	0.551
con	1	0.575
neu	1	0.559
con	1	0.559
inc	1	0.558
con	1	0.534
neu	1	0.558
neu	1	0.55
con	1	0.679
con	1	0.591
inc	1	0.679
inc	1	0.814
con	1	0.606
inc	1	0.646
con	1	0.615
con	1	0.591
con	1	0.607
neu	1	0.583
inc	1	0.575
neu	1	0.582
neu	1	0.51
inc	1	0.622
neu	1	0.542
inc	1	0.55
con	1	0.518
con	1	0.55
neu	1	0.535
inc	1	0.631
neu	1	0.623
inc	1	0.759
neu	1	0.582
con	1	0.622
inc	1	0.694
neu	1	0.526
con	1	0.463
inc	1	0.647
con	1	0.575
con	1	0.606
neu	1	0.59
inc	1	0.838
con	1	0.471
inc	1	0.615
con	1	0.583
neu	1	0.535
inc	1	0.671
neu	1	0.534
inc	1	0.582
con	1	0.566
con	1	0.574
con	1	0.55
neu	1	0.59
con	1	0.534
inc	1	0.615
con	1	0.567
inc	1	0.719
con	1	0.551
inc	1	0.718
neu	1	0.598
neu	1	0.558
inc	1	0.631
neu	1	0.623
con	1	0.591
con	1	0.591
neu	1	0.615
inc	1	0.678
con	1	0.726
con	1	0.702
con	1	0.919
con	1	0.647
neu	1	0.663
neu	1	0.559
inc	0	0.0
neu	1	0.734
