trial_type	correct	response_time
neu	1	0.612
inc	0	0.804
con	1	0.476
inc	1	0.996
inc	1	0.684
neu	1	0.62
con	1	0.597
con	1	0.581
neu	1	0.661
con	1	0.853
inc	0	1.149
neu	1	0.645
con	1	0.653
neu	1	0.573
neu	1	0.565
inc	0	1.053
neu	1	0.637
con	1	0.637
con	1	0.573
inc	1	0.742
con	1	0.574
neu	1	0.606
neu	1	0.56
inc	1	0.75
neu	1	0.637
inc	0	1.096
con	1	0.653
neu	1	0.448
inc	1	0.686
inc	1	0.71
inc	0	1.248
inc	1	0.656
inc	1	0.761
inc	1	1.569
con	1	0.521
neu	1	0.718
con	1	0.665
inc	1	1.113
neu	1	0.618
neu	1	1.17
neu	1	0.538
neu	1	0.53
neu	1	0.61
inc	0	1.306
inc	1	0.681
inc	1	0.761
inc	1	0.674
neu	1	0.625
con	1	0.745
neu	1	0.633
con	1	0.673
inc	1	0.986
con	1	1.002
neu	1	0.722
neu	1	0.73
con	1	0.706
con	1	0.826
inc	1	1.298
inc	1	1.178
con	1	0.843
inc	1	1.139
con	1	0.971
con	1	0.635
con	1	0.683
neu	1	0.587
inc	1	1.067
neu	1	0.699
neu	1	0.65
inc	1	1.019
neu	1	0.595
inc	1	0.74
con	1	0.747
con	1	0.667
neu	1	0.611
inc	1	0.899
neu	1	0.579
inc	1	1.027
neu	1	0.707
con	1	0.652
inc	1	1.46
neu	1	0.572
con	1	0.572
inc	1	1.044
con	1	0.74
con	1	0.868
neu	1	0.58
inc	1	0.885
con	1	0.813
inc	1	1.421
con	1	0.604
neu	1	0.556
inc	1	0.972
neu	1	0.788
inc	1	0.964
con	1	0.652
con	1	0.596
con	1	0.644
neu	1	0.613
con	1	0.661
inc	1	0.741
con	0	1.189
inc	1	0.645
con	1	0.533
inc	1	0.749
neu	1	0.613
neu	1	0.637
inc	1	0.902
neu	1	0.622
con	1	0.67
con	1	0.774
neu	1	0.59
inc	1	1.054
con	1	0.646
con	1	0.662
con	1	0.637
con	1	0.862
neu	1	0.526
neu	1	0.606
inc	1	1.366
neu	1	0.598
