trial_type	correct	response_time
neu	1	0.76
inc	1	0.771
con	1	0.571
inc	1	0.723
inc	0	0.835
neu	1	0.643
con	1	0.659
con	1	0.523
neu	1	0.979
con	1	0.636
inc	1	0.668
neu	1	0.572
con	1	0.596
neu	1	0.54
neu	1	0.572
inc	1	0.724
neu	1	0.74
con	1	0.596
con	1	0.58
inc	1	0.619
con	1	0.571
neu	1	0.548
neu	1	0.508
inc	0	1.06
neu	1	0.532
inc	1	0.628
con	1	0.524
neu	1	0.564
inc	1	0.62
inc	1	0.684
inc	1	0.693
inc	1	0.597
inc	1	0.621
inc	1	0.669
con	1	0.565
neu	1	0.589
con	1	0.613
inc	1	0.654
neu	1	0.557
neu	1	0.557
neu	1	0.501
neu	1	0.589
neu	1	0.621
inc	1	0.669
inc	1	0.789
inc	1	0.677
inc	0	0.957
neu	1	0.589
con	1	0.542
neu	1	0.502
con	1	0.454
inc	1	0.646
con	1	0.526
neu	1	0.638
neu	1	0.566
con	1	0.662
con	1	0.694
inc	1	0.854
inc	1	0.623
con	1	0.679
inc	1	0.639
con	1	0.503
con	1	0.662
con	1	0.702
neu	1	0.63
inc	1	0.598
neu	1	0.639
neu	1	0.519
inc	1	0.767
neu	1	0.567
inc	1	0.583
con	1	0.535
con	1	0.551
neu	1	0.639
inc	1	0.607
neu	1	0.631
inc	1	0.471
neu	1	0.552
con	1	0.608
inc	0	0.944
neu	1	0.608
con	1	0.512
inc	1	0.656
con	1	0.568
con	1	0.488
neu	1	0.464
inc	0	0.617
con	1	0.464
inc	1	0.72
con	1	0.632
neu	1	0.6
inc	1	0.568
neu	1	0.56
inc	1	0.672
con	1	0.545
con	1	0.681
con	1	0.585
neu	1	0.521
con	1	0.609
inc	1	0.745
con	1	0.585
inc	1	0.825
con	1	0.601
inc	1	0.833
neu	1	0.641
neu	1	0.61
inc	1	0.674
neu	1	0.666
con	1	0.746
con	1	0.834
neu	1	0.689
inc	1	0.745
con	1	0.61
con	1	0.618
con	1	0.586
con	1	0.658
neu	1	0.658
neu	1	0.626
inc	0	1.034
neu	1	0.65
