trial_type	correct	response_time
neu	1	0.634
inc	0	0.786
con	1	0.386
inc	1	0.474
inc	0	0.394
neu	1	0.482
con	1	0.547
con	1	0.787
neu	1	0.603
con	1	0.427
inc	1	0.587
neu	1	0.427
con	1	0.418
neu	1	0.354
neu	1	0.458
inc	0	0.474
neu	1	0.442
con	1	0.402
con	1	0.49
inc	1	0.642
con	1	0.434
neu	1	0.515
neu	1	0.387
inc	1	0.571
neu	1	0.482
inc	1	0.642
con	1	0.474
neu	1	0.41
inc	0	0.346
inc	1	0.554
inc	0	0.41
inc	1	0.562
inc	1	0.522
inc	1	0.474
con	1	0.483
neu	1	0.531
con	1	0.418
inc	1	0.538
neu	1	0.37
neu	1	0.482
neu	1	0.418
neu	1	0.458
neu	1	0.418
inc	1	0.634
inc	1	0.611
inc	1	0.547
inc	0	0.451
neu	1	0.499
con	1	0.427
neu	1	0.403
con	1	0.45
inc	1	0.65
con	1	0.418
neu	1	0.49
neu	1	0.514
con	1	0.41
con	1	0.466
inc	1	0.498
inc	1	0.611
con	1	0.483
inc	1	0.579
con	1	0.474
con	1	0.434
con	0	0.362
neu	1	0.442
inc	1	0.562
neu	1	0.466
neu	1	0.426
inc	1	0.554
neu	1	0.482
inc	1	0.546
con	1	0.435
con	1	0.499
neu	1	0.459
inc	1	0.515
neu	1	0.458
inc	1	0.602
neu	1	0.474
con	1	0.546
inc	1	0.97
neu	1	0.506
con	1	0.482
inc	1	0.571
con	1	0.451
con	1	0.419
neu	1	0.402
inc	1	0.594
con	1	0.618
inc	1	0.578
con	1	0.458
neu	1	0.458
inc	0	0.418
neu	1	0.538
inc	1	0.547
con	1	0.555
con	1	0.467
con	1	0.563
neu	1	0.491
con	1	0.491
inc	1	0.618
con	1	0.474
inc	1	0.73
con	1	0.626
inc	1	0.514
neu	1	0.53
neu	1	0.49
inc	1	0.539
neu	1	0.491
con	1	0.451
con	1	0.482
neu	1	0.474
inc	0	0.426
con	1	0.482
con	1	0.554
con	1	0.546
con	1	0.506
neu	1	0.514
neu	1	0.45
inc	1	0.659
neu	1	0.579
